File: tga_m0/tga.csv
Time,Temp,DTA,m
0,24.13,-0.5,4.38
2.3,24.36,-0.49,4.38
4.6,24.3,-0.49,4.38
6.9,24.49,-0.47,4.37
9.2,24.76,-0.45,4.37
11.5,25.09,-0.4,4.37
13.8,25.44,-0.35,4.37
16.1,26.17,-0.29,4.37
18.4,26.69,-0.23,4.37
20.7,27.29,-0.18,4.37
23,27.66,-0.13,4.37
25.3,28.25,-0.07,4.37
27.6,28.77,-0.02,4.37
29.9,29.33,0.03,4.37
32.2,29.9,0.08,4.37
34.5,30.58,0.13,4.37
36.8,31.01,0.17,4.37
39.1,31.47,0.22,4.37
41.4,31.87,0.26,4.37
43.7,32.21,0.31,4.37
46,32.93,0.34,4.37
48.3,33.44,0.38,4.37
50.6,33.95,0.42,4.37
52.9,34.19,0.46,4.37
55.2,34.82,0.49,4.37
57.5,35.01,0.53,4.37
59.8,35.65,0.56,4.37
62.1,36.03,0.59,4.37
64.4,36.78,0.61,4.37
66.7,36.98,0.64,4.37
69,37.6,0.66,4.37
71.3,37.79,0.68,4.37
73.6,38.48,0.7,4.37
75.9,38.59,0.71,4.37
78.2,39.47,0.73,4.37
80.5,39.7,0.75,4.37
82.8,40.39,0.76,4.37
85.1,40.48,0.78,4.37
87.4,41.11,0.79,4.37
89.7,41.12,0.81,4.37
92,41.97,0.82,4.37
94.3,42.31,0.83,4.37
96.6,42.89,0.84,4.37
98.9,43.09,0.85,4.37
101.2,43.64,0.86,4.37
103.5,43.88,0.88,4.37
105.8,44.3,0.89,4.37
108.1,44.8,0.9,4.37
110.4,45.44,0.91,4.37
112.7,45.68,0.92,4.37
115,46.17,0.93,4.37
117.3,46.42,0.94,4.37
119.6,47,0.94,4.37
121.9,47.1,0.95,4.37
124.2,47.87,0.96,4.37
126.5,48.24,0.97,4.37
128.8,48.77,0.97,4.37
131.1,48.91,0.98,4.37
133.4,49.44,0.99,4.37
135.7,49.5,0.99,4.37
138,50.23,1,4.37
140.3,50.66,1,4.37
142.6,51.21,1,4.37
144.9,51.43,1.01,4.37
147.2,51.88,1.01,4.37
149.5,52.16,1.01,4.37
151.8,52.51,1.02,4.37
154.1,53.03,1.02,4.37
156.4,53.56,1.02,4.37
158.7,53.95,1.02,4.37
161,54.26,1.02,4.37
163.3,54.64,1.02,4.37
165.6,55.1,1.03,4.37
167.9,55.27,1.03,4.37
170.2,55.91,1.03,4.37
172.5,56.36,1.03,4.37
174.8,56.81,1.03,4.37
177.1,57.04,1.03,4.37
179.4,57.42,1.03,4.37
181.7,57.69,1.03,4.37
184,58.18,1.03,4.37
186.3,58.69,1.03,4.37
188.6,59.16,1.03,4.37
190.9,59.56,1.02,4.37
193.2,59.86,1.02,4.37
195.5,60.19,1.02,4.37
197.8,60.55,1.02,4.37
200.1,61.02,1.02,4.37
202.4,61.38,1.01,4.37
204.7,61.94,1,4.37
207,62.16,1,4.36
209.3,62.69,0.99,4.36
211.6,62.83,0.99,4.36
213.9,63.28,0.98,4.36
216.2,63.64,0.98,4.36
218.5,64.35,0.97,4.36
220.8,64.5,0.96,4.36
223.1,65.06,0.96,4.36
225.4,65.17,0.95,4.36
227.7,65.81,0.94,4.36
230,65.81,0.93,4.36
232.3,66.73,0.92,4.36
234.6,66.9,0.92,4.36
236.9,67.56,0.91,4.36
239.2,67.57,0.9,4.36
241.5,68.17,0.89,4.36
243.8,68.48,0.88,4.36
246.1,68.92,0.88,4.36
248.4,69.25,0.87,4.36
250.7,69.85,0.86,4.36
253,70.09,0.86,4.36
255.3,70.61,0.85,4.36
257.6,70.81,0.85,4.36
259.9,71.24,0.85,4.36
262.2,71.6,0.85,4.36
264.5,72.22,0.85,4.36
266.8,72.5,0.85,4.36
269.1,72.93,0.85,4.36
271.4,73.16,0.86,4.36
273.7,73.63,0.86,4.36
276,73.75,0.86,4.36
278.3,74.55,0.87,4.36
280.6,74.8,0.87,4.36
282.9,75.36,0.88,4.36
285.2,75.47,0.88,4.36
287.5,76.02,0.89,4.36
289.8,76.33,0.9,4.36
292.1,76.63,0.9,4.36
294.4,77.08,0.91,4.36
296.7,77.7,0.91,4.36
299,77.96,0.92,4.36
301.3,78.4,0.93,4.36
303.6,78.65,0.93,4.36
305.9,79.08,0.94,4.36
308.2,79.34,0.95,4.36
310.5,79.98,0.95,4.36
312.8,80.36,0.95,4.36
315.1,80.72,0.96,4.36
317.4,80.98,0.96,4.36
319.7,81.37,0.97,4.35
322,81.63,0.97,4.36
324.3,82.23,0.98,4.35
326.6,82.59,0.98,4.35
328.9,83.08,0.98,4.35
331.2,83.31,0.99,4.35
333.5,83.72,0.99,4.35
335.8,84.09,1,4.35
338.1,84.33,1,4.35
340.4,84.87,1,4.35
342.7,85.37,1.01,4.35
345,85.72,1.01,4.35
347.3,86.04,1.01,4.35
349.6,86.41,1.01,4.35
351.9,86.79,1.01,4.35
354.2,87,1.02,4.35
356.5,87.66,1.02,4.35
358.8,88.08,1.03,4.35
361.1,88.46,1.03,4.35
363.4,88.71,1.03,4.35
365.7,89,1.03,4.35
368,89.38,1.03,4.35
370.3,89.88,1.03,4.35
372.6,90.25,1.03,4.35
374.9,90.7,1.03,4.35
377.2,91,1.03,4.35
379.5,91.32,1.03,4.35
381.8,91.71,1.03,4.35
384.1,91.87,1.03,4.35
386.4,92.47,1.03,4.35
388.7,92.83,1.02,4.35
391,93.31,1.02,4.35
393.3,93.49,1.02,4.35
395.6,94.04,1.02,4.35
397.9,94.15,1.03,4.35
400.2,94.56,1.03,4.35
402.5,95.04,1.03,4.35
404.8,95.68,1.03,4.35
407.1,95.8,1.02,4.35
409.4,96.34,1.02,4.35
411.7,96.35,1.02,4.35
414,97.06,1.02,4.35
416.3,97.14,1.02,4.35
418.6,97.91,1.03,4.35
420.9,98.13,1.03,4.35
423.2,98.67,1.03,4.35
425.5,98.78,1.03,4.34
427.8,99.4,1.03,4.34
430.1,99.42,1.03,4.34
432.4,100.21,1.03,4.34
434.7,100.39,1.03,4.34
437,101,1.03,4.34
439.3,101.12,1.03,4.34
441.6,101.63,1.03,4.34
443.9,101.8,1.03,4.34
446.2,102.23,1.02,4.34
448.5,102.62,1.02,4.34
450.8,103.26,1.02,4.34
453.1,103.44,1.02,4.34
455.4,103.88,1.01,4.34
457.7,104.45,1.01,4.34
460,104.61,1.01,4.34
462.3,104.73,1,4.34
464.6,105.39,1,4.34
466.9,105.73,1,4.34
469.2,106.18,1,4.34
471.5,106.36,0.99,4.34
473.8,106.87,0.99,4.34
476.1,106.98,0.99,4.34
478.4,107.62,0.99,4.34
480.7,107.96,0.98,4.34
483,108.47,0.98,4.34
485.3,108.63,0.98,4.34
487.6,109.04,0.98,4.34
489.9,109.31,0.98,4.34
492.2,109.7,0.98,4.34
494.5,110.09,0.97,4.34
496.8,110.72,0.97,4.34
499.1,110.91,0.97,4.34
501.4,111.3,0.97,4.34
503.7,111.56,0.97,4.34
506,112.04,0.97,4.34
508.3,112.1,0.97,4.34
510.6,112.82,0.97,4.34
512.9,113.1,0.96,4.34
515.2,113.63,0.96,4.34
517.5,113.72,0.95,4.34
519.8,114.19,0.95,4.34
522.1,114.33,0.95,4.34
524.4,114.89,0.94,4.34
526.7,115.2,0.94,4.34
529,115.77,0.94,4.33
531.3,115.91,0.94,4.33
533.6,116.73,0.94,4.33
535.9,116.58,0.94,4.33
538.2,116.92,0.94,4.33
540.5,117.37,0.94,4.33
542.8,118.02,0.94,4.33
545.1,118.21,0.94,4.33
547.4,118.62,0.94,4.33
549.7,118.87,0.94,4.33
552,119.28,0.95,4.33
554.3,119.42,0.95,4.33
556.6,120.08,0.95,4.33
558.9,120.44,0.96,4.33
561.2,120.9,0.96,4.33
563.5,120.99,0.96,4.33
565.8,121.55,0.96,4.33
568.1,121.75,0.96,4.33
570.4,122.17,0.97,4.33
572.7,122.65,0.97,4.33
575,123.17,0.97,4.33
577.3,123.42,0.98,4.33
579.6,123.8,0.99,4.33
581.9,124.08,0.99,4.33
584.2,124.41,1,4.33
586.5,124.89,1,4.33
588.8,125.44,1,4.33
591.1,125.69,1.01,4.33
593.4,126.11,1.01,4.33
595.7,126.4,1.02,4.33
598,126.84,1.02,4.33
600.3,126.97,1.02,4.33
602.6,127.63,1.02,4.33
604.9,128.03,1.02,4.33
607.2,128.48,1.02,4.33
609.5,128.69,1.02,4.33
611.8,129.13,1.02,4.33
614.1,129.35,1.02,4.33
616.4,129.74,1.02,4.33
618.7,130.24,1.02,4.33
621,130.77,1.02,4.33
623.3,131.04,1.02,4.32
625.6,131.4,1.02,4.32
627.9,131.68,1.02,4.32
630.2,132.06,1.03,4.32
632.5,132.49,1.03,4.32
634.8,133.02,1.03,4.32
637.1,133.36,1.03,4.32
639.4,133.94,1.03,4.32
641.7,134.05,1.03,4.32
644,134.39,1.03,4.32
646.3,134.65,1.03,4.32
648.6,135.25,1.03,4.32
650.9,135.65,1.04,4.32
653.2,136.14,1.04,4.32
655.5,136.32,1.03,4.32
657.8,136.72,1.03,4.32
660.1,137.07,1.03,4.32
662.4,137.38,1.03,4.32
664.7,137.9,1.03,4.32
667,138.35,1.02,4.32
669.3,138.83,1.02,4.32
671.6,139.06,1.02,4.32
673.9,139.37,1.02,4.32
676.2,139.72,1.02,4.32
678.5,140.15,1.02,4.32
680.8,140.66,1.01,4.32
683.1,141.03,1.01,4.32
685.4,141.41,1.01,4.32
687.7,141.7,1,4.32
690,142.11,1,4.32
692.3,142.29,1,4.32
694.6,142.9,1,4.32
696.9,143.3,0.99,4.32
699.2,143.64,0.99,4.32
701.5,143.97,0.99,4.32
703.8,144.38,0.98,4.32
706.1,144.65,0.98,4.32
708.4,145.03,0.98,4.32
710.7,145.57,0.98,4.32
713,146.06,0.98,4.32
715.3,146.4,0.97,4.32
717.6,146.7,0.97,4.32
719.9,147.04,0.97,4.31
722.2,147.38,0.96,4.32
724.5,147.77,0.96,4.32
726.8,148.3,0.96,4.31
729.1,148.56,0.95,4.31
731.4,149.05,0.95,4.31
733.7,149.33,0.94,4.31
736,149.68,0.94,4.31
738.3,149.92,0.93,4.31
740.6,150.51,0.92,4.31
742.9,150.92,0.91,4.31
745.2,151.37,0.9,4.31
747.5,151.57,0.89,4.31
749.8,151.99,0.88,4.31
752.1,152.33,0.87,4.31
754.4,152.59,0.86,4.31
756.7,153.08,0.86,4.31
759,153.51,0.85,4.31
761.3,153.95,0.85,4.31
763.6,154.21,0.84,4.31
765.9,154.51,0.83,4.31
768.2,154.9,0.83,4.31
770.5,155.28,0.82,4.31
772.8,155.84,0.82,4.31
775.1,156.19,0.81,4.31
777.4,156.55,0.81,4.31
779.7,156.84,0.81,4.31
782,157.25,0.8,4.31
784.3,157.44,0.8,4.31
786.6,158,0.79,4.31
788.9,158.41,0.79,4.31
791.2,158.86,0.78,4.31
793.5,159.11,0.78,4.31
795.8,159.47,0.77,4.31
798.1,159.82,0.76,4.31
800.4,160.11,0.76,4.31
802.7,160.67,0.76,4.31
805,161.14,0.75,4.31
807.3,161.49,0.75,4.31
809.6,161.76,0.74,4.31
811.9,162.14,0.74,4.31
814.2,162.51,0.73,4.31
816.5,162.81,0.73,4.31
818.8,163.39,0.72,4.31
821.1,163.79,0.72,4.31
823.4,164.11,0.72,4.31
825.7,164.48,0.72,4.31
828,164.83,0.72,4.31
830.3,165.11,0.72,4.31
832.6,165.64,0.72,4.31
834.9,166.11,0.72,4.31
837.2,166.52,0.71,4.31
839.5,166.77,0.71,4.31
841.8,167.19,0.71,4.31
844.1,167.51,0.7,4.31
846.4,167.79,0.7,4.31
848.7,168.38,0.7,4.31
851,168.88,0.69,4.3
853.3,169.22,0.69,4.3
855.6,169.48,0.68,4.3
857.9,169.87,0.68,4.3
860.2,170.19,0.67,4.3
862.5,170.55,0.66,4.3
864.8,171.1,0.65,4.3
867.1,171.54,0.65,4.3
869.4,171.88,0.64,4.3
871.7,172.23,0.63,4.3
874,172.54,0.63,4.3
876.3,172.84,0.62,4.3
878.6,173.32,0.61,4.3
880.9,173.77,0.6,4.3
883.2,174.15,0.59,4.3
885.5,174.41,0.58,4.3
887.8,174.87,0.57,4.3
890.1,175.18,0.57,4.3
892.4,175.52,0.56,4.3
894.7,176.05,0.56,4.3
897,176.5,0.55,4.3
899.3,176.86,0.54,4.3
901.6,177.17,0.53,4.3
903.9,177.52,0.53,4.3
906.2,177.92,0.52,4.3
908.5,178.2,0.51,4.3
910.8,178.75,0.5,4.3
913.1,179.25,0.49,4.3
915.4,179.57,0.49,4.3
917.7,179.91,0.48,4.3
920,180.24,0.48,4.3
922.3,180.56,0.47,4.3
924.6,181.04,0.46,4.3
926.9,181.55,0.45,4.3
929.2,181.91,0.44,4.3
931.5,182.22,0.44,4.3
933.8,182.6,0.43,4.3
936.1,182.96,0.42,4.3
938.4,183.23,0.41,4.3
940.7,183.78,0.4,4.3
943,184.29,0.39,4.3
945.3,184.58,0.38,4.3
947.6,184.87,0.37,4.3
949.9,185.29,0.36,4.3
952.2,185.63,0.34,4.3
954.5,185.94,0.33,4.3
956.8,186.51,0.32,4.3
959.1,186.94,0.31,4.3
961.4,187.32,0.3,4.3
963.7,187.59,0.29,4.3
966,187.99,0.28,4.3
968.3,188.26,0.27,4.3
970.6,188.72,0.26,4.3
972.9,189.24,0.25,4.3
975.2,189.6,0.24,4.3
977.5,189.92,0.23,4.29
979.8,190.33,0.22,4.29
982.1,190.69,0.21,4.29
984.4,190.95,0.21,4.29
986.7,191.54,0.2,4.29
989,191.92,0.19,4.29
991.3,192.35,0.18,4.29
993.6,192.62,0.17,4.29
995.9,193.03,0.16,4.29
998.2,193.36,0.15,4.29
1000.5,193.68,0.14,4.29
1002.8,194.22,0.12,4.29
1005.1,194.64,0.11,4.29
1007.4,195.02,0.1,4.29
1009.7,195.33,0.09,4.29
1012,195.65,0.07,4.29
1014.3,196.01,0.06,4.29
1016.6,196.45,0.04,4.29
1018.9,196.89,0.02,4.29
1021.2,197.33,0.01,4.29
1023.5,197.64,0,4.29
1025.8,197.99,-0.01,4.29
1028.1,198.39,-0.02,4.29
1030.4,198.66,-0.03,4.29
1032.7,199.23,-0.04,4.29
1035,199.62,-0.05,4.29
1037.3,200.04,-0.06,4.29
1039.6,200.33,-0.08,4.29
1041.9,200.72,-0.09,4.29
1044.2,201.1,-0.1,4.29
1046.5,201.38,-0.12,4.29
1048.8,201.87,-0.13,4.28
1051.1,202.37,-0.14,4.28
1053.4,202.68,-0.16,4.28
1055.7,202.99,-0.18,4.28
1058,203.34,-0.2,4.28
1060.3,203.67,-0.21,4.28
1062.6,204.09,-0.23,4.28
1064.9,204.56,-0.24,4.28
1067.2,204.99,-0.26,4.28
1069.5,205.32,-0.27,4.28
1071.8,205.68,-0.28,4.28
1074.1,206.05,-0.29,4.28
1076.4,206.32,-0.3,4.28
1078.7,206.83,-0.32,4.28
1081,207.31,-0.33,4.28
1083.3,207.68,-0.34,4.28
1085.6,207.95,-0.36,4.28
1087.9,208.37,-0.37,4.28
1090.2,208.73,-0.38,4.28
1092.5,209.01,-0.39,4.28
1094.8,209.53,-0.4,4.28
1097.1,210.04,-0.41,4.28
1099.4,210.38,-0.42,4.28
1101.7,210.74,-0.42,4.28
1104,211.1,-0.43,4.28
1106.3,211.42,-0.44,4.28
1108.6,211.81,-0.45,4.28
1110.9,212.38,-0.46,4.28
1113.2,212.75,-0.47,4.28
1115.5,213.09,-0.48,4.27
1117.8,213.41,-0.49,4.27
1120.1,213.82,-0.5,4.27
1122.4,214.08,-0.52,4.27
1124.7,214.58,-0.53,4.27
1127,215.06,-0.55,4.27
1129.3,215.45,-0.56,4.27
1131.6,215.77,-0.57,4.27
1133.9,216.18,-0.58,4.27
1136.2,216.55,-0.6,4.27
1138.5,216.81,-0.61,4.27
1140.8,217.37,-0.62,4.27
1143.1,217.87,-0.63,4.27
1145.4,218.19,-0.64,4.27
1147.7,218.45,-0.66,4.27
1150,218.9,-0.67,4.27
1152.3,219.23,-0.69,4.27
1154.6,219.58,-0.7,4.27
1156.9,220.15,-0.72,4.27
1159.2,220.55,-0.74,4.27
1161.5,220.94,-0.75,4.27
1163.8,221.28,-0.77,4.27
1166.1,221.63,-0.78,4.26
1168.4,221.9,-0.8,4.26
1170.7,222.46,-0.81,4.26
1173,222.86,-0.83,4.26
1175.3,223.27,-0.85,4.26
1177.6,223.5,-0.87,4.26
1179.9,224,-0.89,4.26
1182.2,224.31,-0.91,4.26
1184.5,224.57,-0.93,4.26
1186.8,225.15,-0.95,4.26
1189.1,225.61,-0.96,4.26
1191.4,225.99,-0.98,4.26
1193.7,226.31,-1,4.26
1196,226.65,-1.02,4.26
1198.3,227.03,-1.04,4.26
1200.6,227.36,-1.05,4.26
1202.9,227.88,-1.07,4.26
1205.2,228.31,-1.08,4.26
1207.5,228.61,-1.1,4.25
1209.8,229.02,-1.11,4.25
1212.1,229.36,-1.13,4.25
1214.4,229.63,-1.15,4.25
1216.7,230.17,-1.17,4.25
1219,230.61,-1.2,4.25
1221.3,231.06,-1.22,4.25
1223.6,231.33,-1.24,4.25
1225.9,231.73,-1.25,4.25
1228.2,232.07,-1.27,4.25
1230.5,232.38,-1.29,4.25
1232.8,232.93,-1.3,4.25
1235.1,233.4,-1.32,4.25
1237.4,233.68,-1.33,4.25
1239.7,234.1,-1.35,4.25
1242,234.46,-1.36,4.25
1244.3,234.83,-1.38,4.25
1246.6,235.12,-1.39,4.25
1248.9,235.7,-1.4,4.24
1251.2,236.17,-1.42,4.24
1253.5,236.55,-1.43,4.24
1255.8,236.85,-1.45,4.24
1258.1,237.26,-1.46,4.24
1260.4,237.56,-1.48,4.24
1262.7,238.05,-1.49,4.24
1265,238.49,-1.51,4.24
1267.3,238.84,-1.53,4.24
1269.6,239.28,-1.55,4.24
1271.9,239.62,-1.57,4.24
1274.2,239.97,-1.6,4.24
1276.5,240.32,-1.62,4.24
1278.8,240.82,-1.65,4.24
1281.1,241.29,-1.67,4.24
1283.4,241.68,-1.7,4.24
1285.7,241.93,-1.72,4.24
1288,242.32,-1.75,4.24
1290.3,242.7,-1.78,4.24
1292.6,242.98,-1.8,4.23
1294.9,243.56,-1.83,4.23
1297.2,243.94,-1.85,4.23
1299.5,244.36,-1.87,4.23
1301.8,244.67,-1.89,4.23
1304.1,245.05,-1.91,4.23
1306.4,245.4,-1.94,4.23
1308.7,245.78,-1.96,4.23
1311,246.3,-1.98,4.23
1313.3,246.74,-2,4.23
1315.6,247.03,-2.02,4.23
1317.9,247.4,-2.04,4.23
1320.2,247.76,-2.06,4.22
1322.5,248.07,-2.08,4.22
1324.8,248.57,-2.1,4.22
1327.1,249.04,-2.12,4.22
1329.4,249.44,-2.14,4.22
1331.7,249.71,-2.16,4.22
1334,250.08,-2.18,4.22
1336.3,250.52,-2.2,4.22
1338.6,250.77,-2.23,4.22
1340.9,251.35,-2.25,4.22
1343.2,251.79,-2.27,4.22
1345.5,252.17,-2.29,4.22
1347.8,252.48,-2.31,4.22
1350.1,252.82,-2.34,4.22
1352.4,253.17,-2.36,4.21
1354.7,253.54,-2.39,4.21
1357,254.18,-2.41,4.21
1359.3,254.5,-2.43,4.21
1361.6,254.79,-2.46,4.21
1363.9,255.12,-2.48,4.21
1366.2,255.52,-2.5,4.21
1368.5,255.82,-2.53,4.21
1370.8,256.32,-2.55,4.21
1373.1,256.76,-2.58,4.21
1375.4,257.12,-2.61,4.21
1377.7,257.48,-2.64,4.21
1380,257.8,-2.68,4.21
1382.3,258.18,-2.71,4.21
1384.6,258.45,-2.74,4.2
1386.9,259.13,-2.77,4.2
1389.2,259.4,-2.79,4.2
1391.5,259.78,-2.82,4.2
1393.8,260.06,-2.85,4.2
1396.1,260.5,-2.87,4.2
1398.4,260.79,-2.9,4.2
1400.7,261.13,-2.93,4.2
1403,261.66,-2.96,4.2
1405.3,262.07,-2.99,4.2
1407.6,262.42,-3.01,4.2
1409.9,262.76,-3.04,4.2
1412.2,263.08,-3.07,4.19
1414.5,263.41,-3.09,4.19
1416.8,263.95,-3.12,4.19
1419.1,264.34,-3.14,4.19
1421.4,264.66,-3.16,4.19
1423.7,265,-3.18,4.19
1426,265.4,-3.21,4.19
1428.3,265.75,-3.23,4.19
1430.6,266.01,-3.26,4.19
1432.9,266.57,-3.28,4.18
1435.2,266.94,-3.3,4.18
1437.5,267.37,-3.33,4.18
1439.8,267.61,-3.36,4.18
1442.1,268.04,-3.39,4.18
1444.4,268.31,-3.41,4.18
1446.7,268.66,-3.44,4.18
1449,269.18,-3.47,4.18
1451.3,269.61,-3.49,4.18
1453.6,269.9,-3.52,4.18
1455.9,270.34,-3.54,4.18
1458.2,270.62,-3.56,4.17
1460.5,271.01,-3.59,4.17
1462.8,271.36,-3.61,4.17
1465.1,271.91,-3.63,4.17
1467.4,272.23,-3.65,4.17
1469.7,272.62,-3.67,4.17
1472,272.91,-3.69,4.17
1474.3,273.32,-3.71,4.17
1476.6,273.49,-3.73,4.17
1478.9,274.13,-3.74,4.16
1481.2,274.47,-3.76,4.16
1483.5,274.94,-3.78,4.16
1485.8,275.2,-3.79,4.16
1488.1,275.67,-3.8,4.16
1490.4,275.94,-3.82,4.16
1492.7,276.29,-3.83,4.16
1495,276.78,-3.84,4.16
1497.3,277.32,-3.85,4.16
1499.6,277.61,-3.86,4.16
1501.9,278,-3.88,4.15
1504.2,278.25,-3.89,4.15
1506.5,278.63,-3.91,4.15
1508.8,279,-3.92,4.15
1511.1,279.63,-3.94,4.15
1513.4,279.89,-3.96,4.15
1515.7,280.43,-3.97,4.15
1518,280.62,-3.98,4.15
1520.3,281.14,-4,4.14
1522.6,281.32,-4.01,4.14
1524.9,282,-4.02,4.14
1527.2,282.25,-4.03,4.14
1529.5,282.87,-4.05,4.14
1531.8,282.98,-4.06,4.14
1534.1,283.55,-4.08,4.14
1536.4,283.7,-4.09,4.13
1538.7,284.21,-4.11,4.13
1541,284.6,-4.13,4.13
1543.3,285.18,-4.15,4.13
1545.6,285.44,-4.17,4.13
1547.9,285.91,-4.19,4.13
1550.2,286.13,-4.21,4.13
1552.5,286.7,-4.23,4.12
1554.8,286.87,-4.24,4.12
1557.1,287.6,-4.26,4.12
1559.4,287.83,-4.28,4.12
1561.7,288.39,-4.3,4.12
1564,288.55,-4.32,4.12
1566.3,289.11,-4.35,4.11
1568.6,289.23,-4.38,4.11
1570.9,289.93,-4.4,4.11
1573.2,290.17,-4.43,4.11
1575.5,290.8,-4.47,4.11
1577.8,290.9,-4.5,4.1
1580.1,291.46,-4.54,4.1
1582.4,291.62,-4.58,4.1
1584.7,292.11,-4.62,4.1
1587,292.44,-4.67,4.1
1589.3,293.07,-4.71,4.1
1591.6,293.25,-4.75,4.09
1593.9,293.8,-4.79,4.09
1596.2,293.89,-4.83,4.09
1598.5,294.47,-4.88,4.09
1600.8,294.61,-4.92,4.09
1603.1,295.31,-4.96,4.08
1605.4,295.54,-5,4.08
1607.7,296.09,-5.04,4.08
1610,296.18,-5.07,4.08
1612.3,296.79,-5.11,4.08
1614.6,296.88,-5.14,4.07
1616.9,297.52,-5.17,4.07
1619.2,297.81,-5.2,4.07
1621.5,298.41,-5.22,4.07
1623.8,298.56,-5.25,4.06
1626.1,299.15,-5.27,4.06
1628.4,299.29,-5.28,4.06
1630.7,299.79,-5.3,4.06
1633,300.13,-5.32,4.06
1635.3,300.77,-5.33,4.05
1637.6,301.01,-5.34,4.05
1639.9,301.47,-5.36,4.05
1642.2,301.9,-5.38,4.04
1644.5,302.24,-5.39,4.04
1646.8,302.33,-5.41,4.04
1649.1,303.11,-5.42,4.04
1651.4,303.37,-5.44,4.04
1653.7,303.98,-5.46,4.03
1656,304.11,-5.47,4.03
1658.3,304.65,-5.49,4.03
1660.6,304.76,-5.51,4.02
1662.9,305.44,-5.54,4.02
1665.2,305.69,-5.56,4.02
1667.5,306.31,-5.58,4.02
1669.8,306.45,-5.61,4.01
1672.1,307.1,-5.63,4.01
1674.4,307.19,-5.65,4.01
1676.7,307.67,-5.67,4.01
1679,308.04,-5.69,4
1681.3,308.68,-5.72,4
1683.6,308.88,-5.74,4
1685.9,309.39,-5.76,3.99
1688.2,309.64,-5.78,3.99
1690.5,310.13,-5.8,3.99
1692.8,310.28,-5.82,3.99
1695.1,311.01,-5.85,3.98
1697.4,311.26,-5.87,3.98
1699.7,311.77,-5.9,3.98
1702,311.85,-5.93,3.98
1704.3,312.45,-5.95,3.97
1706.6,312.61,-5.98,3.97
1708.9,313.19,-6.01,3.97
1711.2,313.53,-6.04,3.97
1713.5,314.07,-6.08,3.96
1715.8,314.24,-6.1,3.96
1718.1,314.77,-6.13,3.96
1720.4,314.96,-6.15,3.96
1722.7,315.37,-6.18,3.95
1725,315.8,-6.2,3.95
1727.3,316.36,-6.23,3.95
1729.6,316.58,-6.25,3.94
1731.9,316.99,-6.28,3.94
1734.2,317.3,-6.31,3.94
1736.5,317.79,-6.33,3.94
1738.8,317.94,-6.36,3.93
1741.1,318.6,-6.38,3.93
1743.4,318.92,-6.4,3.93
1745.7,319.43,-6.43,3.93
1748,319.63,-6.44,3.92
1750.3,320.1,-6.46,3.92
1752.6,320.31,-6.48,3.92
1754.9,320.84,-6.5,3.92
1757.2,321.19,-6.52,3.91
1759.5,321.74,-6.54,3.91
1761.8,321.91,-6.57,3.91
1764.1,322.38,-6.59,3.91
1766.4,322.67,-6.6,3.9
1768.7,323.05,-6.62,3.9
1771,323.49,-6.64,3.9
1773.3,324.04,-6.66,3.89
1775.6,324.27,-6.67,3.89
1777.9,324.77,-6.69,3.89
1780.2,325.01,-6.71,3.89
1782.5,325.42,-6.72,3.88
1784.8,325.65,-6.74,3.88
1787.1,326.31,-6.75,3.88
1789.4,326.68,-6.77,3.88
1791.7,327.16,-6.79,3.87
1794,327.32,-6.8,3.87
1796.3,327.78,-6.82,3.87
1798.6,328.02,-6.83,3.86
1800.9,328.6,-6.85,3.86
1803.2,328.95,-6.87,3.86
1805.5,329.45,-6.89,3.86
1807.8,329.91,-6.92,3.85
1810.1,330.15,-6.94,3.85
1812.4,330.4,-6.97,3.85
1814.7,330.8,-6.99,3.85
1817,331.26,-7.02,3.84
1819.3,331.82,-7.04,3.84
1821.6,332.07,-7.06,3.84
1823.9,332.48,-7.08,3.83
1826.2,332.75,-7.1,3.83
1828.5,333.26,-7.12,3.83
1830.8,333.45,-7.14,3.83
1833.1,334.08,-7.16,3.82
1835.4,334.44,-7.17,3.82
1837.7,334.88,-7.19,3.82
1840,335.12,-7.21,3.82
1842.3,335.61,-7.22,3.81
1844.6,335.81,-7.25,3.81
1846.9,336.42,-7.27,3.81
1849.2,336.76,-7.29,3.81
1851.5,337.3,-7.3,3.8
1853.8,337.51,-7.32,3.8
1856.1,337.99,-7.34,3.8
1858.4,338.23,-7.36,3.8
1860.7,338.65,-7.39,3.79
1863,339.09,-7.41,3.79
1865.3,339.61,-7.45,3.79
1867.6,339.83,-7.48,3.78
1869.9,340.35,-7.52,3.78
1872.2,340.57,-7.56,3.78
1874.5,341,-7.6,3.78
1876.8,341.26,-7.63,3.77
1879.1,341.87,-7.66,3.77
1881.4,342.2,-7.7,3.77
1883.7,342.7,-7.73,3.77
1886,342.88,-7.76,3.76
1888.3,343.32,-7.8,3.76
1890.6,343.53,-7.84,3.76
1892.9,344.07,-7.88,3.76
1895.2,344.45,-7.92,3.75
1897.5,344.92,-7.96,3.75
1899.8,345.16,-7.99,3.75
1902.1,345.63,-8.03,3.75
1904.4,345.86,-8.06,3.74
1906.7,346.25,-8.1,3.74
1909,346.67,-8.13,3.74
1911.3,347.19,-8.16,3.73
1913.6,347.59,-8.2,3.73
1915.9,347.88,-8.23,3.73
1918.2,348.13,-8.26,3.73
1920.5,348.6,-8.29,3.72
1922.8,348.8,-8.32,3.72
1925.1,349.41,-8.34,3.72
1927.4,349.8,-8.37,3.72
1929.7,350.2,-8.39,3.72
1932,350.42,-8.42,3.71
1934.3,350.92,-8.44,3.71
1936.6,351.16,-8.46,3.71
1938.9,351.64,-8.48,3.7
1941.2,352.03,-8.5,3.7
1943.5,352.41,-8.53,3.7
1945.8,352.75,-8.56,3.7
1948.1,353.17,-8.59,3.69
1950.4,353.47,-8.62,3.69
1952.7,353.86,-8.65,3.69
1955,354.29,-8.67,3.69
1957.3,354.77,-8.71,3.68
1959.6,355.16,-8.74,3.68
1961.9,355.45,-8.77,3.68
1964.2,355.76,-8.8,3.68
1966.5,356.21,-8.83,3.67
1968.8,356.46,-8.85,3.67
1971.1,357.01,-8.87,3.67
1973.4,357.39,-8.89,3.67
1975.7,357.84,-8.92,3.66
1978,358.15,-8.94,3.66
1980.3,358.49,-8.97,3.66
1982.6,358.82,-9,3.65
1984.9,359.24,-9.03,3.65
1987.2,359.69,-9.06,3.65
1989.5,360.17,-9.1,3.65
1991.8,360.46,-9.13,3.64
1994.1,360.83,-9.15,3.64
1996.4,361.14,-9.18,3.64
1998.7,361.49,-9.21,3.63
2001,362.01,-9.24,3.63
2003.3,362.49,-9.27,3.63
2005.6,362.8,-9.31,3.63
2007.9,363.13,-9.34,3.62
2010.2,363.5,-9.38,3.62
2012.5,363.83,-9.41,3.62
2014.8,364.13,-9.44,3.61
2017.1,364.71,-9.48,3.61
2019.4,365.11,-9.51,3.61
2021.7,365.51,-9.54,3.6
2024,365.74,-9.58,3.6
2026.3,366.11,-9.62,3.6
2028.6,366.47,-9.65,3.6
2030.9,366.93,-9.69,3.59
2033.2,367.39,-9.72,3.59
2035.5,367.81,-9.75,3.59
2037.8,368.12,-9.78,3.58
2040.1,368.47,-9.81,3.58
2042.4,368.86,-9.82,3.58
2044.7,369.15,-9.84,3.58
2047,369.74,-9.85,3.57
2049.3,370.13,-9.86,3.57
2051.6,370.57,-9.87,3.57
2053.9,370.87,-9.88,3.56
2056.2,371.31,-9.89,3.56
2058.5,371.62,-9.9,3.56
2060.8,372,-9.91,3.55
2063.1,372.46,-9.93,3.55
2065.4,373.12,-9.95,3.55
2067.7,373.28,-9.98,3.54
2070,373.71,-10.01,3.54
2072.3,373.93,-10.05,3.54
2074.6,374.45,-10.09,3.53
2076.9,374.74,-10.13,3.53
2079.2,375.41,-10.18,3.53
2081.5,375.64,-10.22,3.52
2083.8,376.13,-10.26,3.52
2086.1,376.35,-10.3,3.52
2088.4,376.91,-10.34,3.51
2090.7,376.98,-10.38,3.51
2093,377.69,-10.43,3.51
2095.3,377.88,-10.48,3.5
2097.6,378.55,-10.53,3.5
2099.9,378.64,-10.58,3.5
2102.2,379.22,-10.63,3.49
2104.5,379.39,-10.68,3.49
2106.8,379.89,-10.73,3.48
2109.1,380.25,-10.78,3.48
2111.4,380.88,-10.82,3.48
2113.7,381.09,-10.87,3.47
2116,381.54,-10.91,3.47
2118.3,381.77,-10.95,3.47
2120.6,382.24,-11,3.46
2122.9,382.56,-11.04,3.46
2125.2,383.22,-11.09,3.46
2127.5,383.42,-11.13,3.45
2129.8,383.89,-11.17,3.45
2132.1,384.2,-11.22,3.44
2134.4,384.61,-11.26,3.44
2136.7,384.81,-11.31,3.44
2139,385.45,-11.35,3.43
2141.3,385.69,-11.4,3.43
2143.6,386.31,-11.44,3.43
2145.9,386.49,-11.48,3.42
2148.2,386.96,-11.52,3.42
2150.5,387.22,-11.56,3.42
2152.8,387.62,-11.6,3.41
2155.1,388.05,-11.64,3.41
2157.4,388.64,-11.68,3.4
2159.7,388.92,-11.72,3.4
2162,389.31,-11.76,3.4
2164.3,389.52,-11.8,3.39
2166.6,390.02,-11.85,3.39
2168.9,390.33,-11.9,3.38
2171.2,390.94,-11.94,3.38
2173.5,391.19,-11.99,3.38
2175.8,391.64,-12.04,3.37
2178.1,391.89,-12.09,3.37
2180.4,392.34,-12.14,3.37
2182.7,392.52,-12.19,3.36
2185,393.11,-12.25,3.36
2187.3,393.36,-12.3,3.35
2189.6,393.92,-12.36,3.35
2191.9,394.12,-12.41,3.35
2194.2,394.54,-12.46,3.34
2196.5,394.83,-12.51,3.34
2198.8,395.19,-12.56,3.34
2201.1,395.64,-12.61,3.33
2203.4,396.15,-12.66,3.33
2205.7,396.46,-12.7,3.32
2208,396.78,-12.74,3.32
2210.3,397.12,-12.78,3.31
2212.6,397.51,-12.82,3.31
2214.9,397.89,-12.85,3.31
2217.2,398.42,-12.88,3.3
2219.5,398.78,-12.91,3.3
2221.8,399.14,-12.94,3.29
2224.1,399.46,-12.97,3.29
2226.4,399.84,-13,3.29
2228.7,400.09,-13.03,3.28
2231,400.63,-13.06,3.28
2233.3,401.02,-13.09,3.27
2235.6,401.49,-13.11,3.27
2237.9,401.76,-13.15,3.27
2240.2,402.15,-13.18,3.26
2242.5,402.5,-13.2,3.26
2244.8,402.82,-13.23,3.25
2247.1,403.33,-13.26,3.25
2249.4,403.88,-13.29,3.25
2251.7,404.19,-13.32,3.24
2254,404.48,-13.36,3.24
2256.3,404.82,-13.4,3.23
2258.6,405.17,-13.44,3.23
2260.9,405.6,-13.49,3.22
2263.2,406.08,-13.53,3.22
2265.5,406.46,-13.58,3.21
2267.8,406.77,-13.62,3.21
2270.1,407.15,-13.67,3.21
2272.4,407.43,-13.72,3.2
2274.7,407.77,-13.77,3.2
2277,408.18,-13.82,3.19
2279.3,408.75,-13.87,3.19
2281.6,408.97,-13.93,3.18
2283.9,409.43,-13.98,3.18
2286.2,409.64,-14.04,3.17
2288.5,410.16,-14.1,3.17
2290.8,410.26,-14.15,3.16
2293.1,411,-14.21,3.16
2295.4,411.47,-14.26,3.15
2297.7,411.78,-14.3,3.15
2300,411.86,-14.35,3.14
2302.3,412.43,-14.39,3.14
2304.6,412.59,-14.42,3.13
2306.9,413.16,-14.46,3.13
2309.2,413.5,-14.49,3.12
2311.5,414.06,-14.52,3.11
2313.8,414.24,-14.55,3.11
2316.1,414.75,-14.58,3.1
2318.4,414.98,-14.6,3.1
2320.7,415.4,-14.62,3.09
2323,415.81,-14.65,3.09
2325.3,416.35,-14.66,3.08
2327.6,416.64,-14.68,3.08
2329.9,417.09,-14.7,3.07
2332.2,417.34,-14.72,3.07
2334.5,417.82,-14.74,3.06
2336.8,418.03,-14.76,3.06
2339.1,418.7,-14.78,3.05
2341.4,419.07,-14.8,3.05
2343.7,419.55,-14.82,3.04
2346,419.71,-14.82,3.03
2348.3,420.19,-14.83,3.03
2350.6,420.44,-14.85,3.02
2352.9,420.93,-14.88,3.02
2355.2,421.3,-14.91,3.01
2357.5,421.82,-14.95,3
2359.8,422.05,-14.99,3
2362.1,422.5,-15.03,2.99
2364.4,422.72,-15.09,2.98
2366.7,423.12,-15.14,2.98
2369,423.55,-15.19,2.97
2371.3,424.09,-15.24,2.96
2373.6,424.34,-15.29,2.95
2375.9,424.71,-15.33,2.95
2378.2,425.04,-15.38,2.94
2380.5,425.47,-15.43,2.93
2382.8,425.68,-15.47,2.93
2385.1,426.27,-15.51,2.92
2387.4,426.58,-15.55,2.91
2389.7,427.11,-15.58,2.9
2392,427.34,-15.61,2.9
2394.3,427.73,-15.63,2.89
2396.6,428.04,-15.66,2.88
2398.9,428.47,-15.68,2.88
2401.2,428.92,-15.7,2.87
2403.5,429.46,-15.72,2.86
2405.8,429.76,-15.74,2.86
2408.1,430.09,-15.76,2.85
2410.4,430.44,-15.77,2.84
2412.7,430.79,-15.79,2.83
2415,431.28,-15.81,2.83
2417.3,431.74,-15.84,2.82
2419.6,432.12,-15.87,2.81
2421.9,432.43,-15.91,2.8
2424.2,432.74,-15.96,2.8
2426.5,433.15,-16.01,2.79
2428.8,433.4,-16.06,2.78
2431.1,433.92,-16.11,2.78
2433.4,434.32,-16.17,2.77
2435.7,434.7,-16.22,2.76
2438,435.01,-16.26,2.75
2440.3,435.32,-16.31,2.75
2442.6,435.7,-16.35,2.74
2444.9,436.02,-16.39,2.73
2447.2,436.57,-16.43,2.73
2449.5,436.94,-16.46,2.72
2451.8,437.38,-16.49,2.71
2454.1,437.57,-16.51,2.71
2456.4,438.08,-16.53,2.7
2458.7,438.27,-16.55,2.69
2461,438.96,-16.57,2.68
2463.3,439.24,-16.59,2.68
2465.6,439.84,-16.61,2.67
2467.9,439.95,-16.63,2.66
2470.2,440.49,-16.65,2.66
2472.5,440.72,-16.66,2.65
2474.8,441.19,-16.68,2.64
2477.1,441.6,-16.7,2.64
2479.4,442.19,-16.72,2.63
2481.7,442.45,-16.75,2.62
2484,442.87,-16.78,2.62
2486.3,443.14,-16.81,2.61
2488.6,443.57,-16.84,2.6
2490.9,443.88,-16.87,2.6
2493.2,444.44,-16.92,2.59
2495.5,444.74,-16.97,2.58
2497.8,445.15,-17.03,2.58
2500.1,445.41,-17.09,2.57
2502.4,445.87,-17.15,2.56
2504.7,446.01,-17.21,2.56
2507,446.62,-17.27,2.55
2509.3,446.95,-17.33,2.54
2511.6,447.5,-17.39,2.54
2513.9,447.6,-17.44,2.53
2516.2,448.07,-17.48,2.52
2518.5,448.29,-17.52,2.52
2520.8,448.7,-17.54,2.51
2523.1,449.18,-17.56,2.5
2525.4,449.7,-17.58,2.5
2527.7,449.99,-17.6,2.49
2530,450.39,-17.61,2.49
2532.3,450.65,-17.62,2.48
2534.6,451.07,-17.63,2.47
2536.9,451.39,-17.65,2.47
2539.2,451.91,-17.67,2.46
2541.5,452.33,-17.7,2.45
2543.8,452.69,-17.73,2.45
2546.1,452.97,-17.77,2.44
2548.4,453.33,-17.8,2.44
2550.7,453.62,-17.84,2.43
2553,454.12,-17.88,2.42
2555.3,454.53,-17.91,2.42
2557.6,454.91,-17.94,2.41
2559.9,455.22,-17.97,2.41
2562.2,455.6,-17.99,2.4
2564.5,455.95,-18.01,2.4
2566.8,456.26,-18.04,2.39
2569.1,456.76,-18.06,2.38
2571.4,457.18,-18.09,2.38
2573.7,457.5,-18.11,2.37
2576,457.84,-18.14,2.37
2578.3,458.26,-18.16,2.36
2580.6,458.45,-18.18,2.35
2582.9,458.98,-18.2,2.35
2585.2,459.33,-18.23,2.34
2587.5,459.88,-18.26,2.34
2589.8,460.13,-18.29,2.33
2592.1,460.61,-18.32,2.32
2594.4,460.72,-18.36,2.32
2596.7,461.21,-18.4,2.31
2599,461.54,-18.45,2.31
2601.3,462.11,-18.51,2.3
2603.6,462.27,-18.57,2.3
2605.9,462.72,-18.63,2.29
2608.2,462.98,-18.68,2.28
2610.5,463.41,-18.74,2.28
2612.8,463.54,-18.78,2.27
2615.1,464.19,-18.82,2.27
2617.4,464.55,-18.85,2.26
2619.7,465.03,-18.86,2.26
2622,465.22,-18.87,2.25
2624.3,465.68,-18.88,2.25
2626.6,465.88,-18.89,2.24
2628.9,466.42,-18.9,2.24
2631.2,466.76,-18.91,2.23
2633.5,467.32,-18.92,2.23
2635.8,467.51,-18.92,2.22
2638.1,467.99,-18.91,2.21
2640.4,468.25,-18.91,2.21
2642.7,468.69,-18.9,2.2
2645,469.1,-18.89,2.2
2647.3,469.6,-18.89,2.19
2649.6,469.93,-18.89,2.19
2651.9,470.24,-18.89,2.18
2654.2,470.65,-18.9,2.18
2656.5,471.08,-18.91,2.17
2658.8,471.3,-18.93,2.17
2661.1,471.87,-18.95,2.16
2663.4,472.28,-18.98,2.16
2665.7,472.69,-19,2.15
2668,473.16,-19.03,2.15
2670.3,473.37,-19.05,2.14
2672.6,473.67,-19.08,2.14
2674.9,474.03,-19.11,2.13
2677.2,474.54,-19.14,2.13
2679.5,474.95,-19.17,2.13
2681.8,475.3,-19.2,2.12
2684.1,475.64,-19.23,2.12
2686.4,476.03,-19.26,2.11
2688.7,476.22,-19.29,2.11
2691,476.85,-19.31,2.1
2693.3,477.2,-19.32,2.1
2695.6,477.76,-19.33,2.09
2697.9,477.92,-19.34,2.09
2700.2,478.52,-19.35,2.09
2702.5,478.71,-19.36,2.08
2704.8,479.21,-19.37,2.08
2707.1,479.58,-19.39,2.07
2709.4,480.23,-19.4,2.07
2711.7,480.5,-19.42,2.06
2714,480.95,-19.44,2.06
2716.3,481.23,-19.46,2.05
2718.6,481.68,-19.48,2.05
2720.9,481.92,-19.51,2.05
2723.2,482.55,-19.54,2.04
2725.5,482.9,-19.56,2.04
2727.8,483.42,-19.59,2.03
2730.1,483.58,-19.63,2.03
2732.4,484.06,-19.66,2.02
2734.7,484.28,-19.71,2.02
2737,484.88,-19.75,2.02
2739.3,485.18,-19.79,2.01
2741.6,485.68,-19.83,2.01
2743.9,485.86,-19.88,2.01
2746.2,486.35,-19.93,2
2748.5,486.66,-19.98,2
2750.8,487.01,-20.02,1.99
2753.1,487.52,-20.06,1.99
2755.4,488,-20.09,1.99
2757.7,488.35,-20.13,1.98
2760,488.67,-20.15,1.98
2762.3,488.93,-20.19,1.98
2764.6,489.39,-20.22,1.97
2766.9,489.71,-20.26,1.97
2769.2,490.21,-20.3,1.96
2771.5,490.61,-20.35,1.96
2773.8,491,-20.4,1.96
2776.1,491.28,-20.44,1.95
2778.4,491.85,-20.49,1.95
2780.7,491.96,-20.53,1.95
2783,492.34,-20.57,1.94
2785.3,492.84,-20.61,1.94
2787.6,493.16,-20.64,1.94
2789.9,493.58,-20.68,1.93
2792.2,493.81,-20.71,1.93
2794.5,494.37,-20.75,1.93
2796.8,494.47,-20.79,1.92
2799.1,495.2,-20.83,1.92
2801.4,495.42,-20.86,1.92
2803.7,496.02,-20.89,1.91
2806,496.14,-20.91,1.91
2808.3,496.68,-20.92,1.91
2810.6,496.91,-20.94,1.9
2812.9,497.42,-20.96,1.9
2815.2,497.79,-20.97,1.9
2817.5,498.32,-20.99,1.9
2819.8,498.62,-21.02,1.89
2822.1,499.06,-21.04,1.89
2824.4,499.3,-21.07,1.89
2826.7,499.74,-21.1,1.88
2829,500.09,-21.13,1.88
2831.3,500.64,-21.16,1.88
2833.6,500.9,-21.19,1.88
2835.9,501.34,-21.24,1.87
2838.2,501.63,-21.28,1.87
2840.5,502.09,-21.32,1.87
2842.8,502.29,-21.36,1.86
2845.1,502.9,-21.39,1.86
2847.4,503.26,-21.42,1.86
2849.7,503.68,-21.45,1.86
2852,503.93,-21.48,1.85
2854.3,504.37,-21.5,1.85
2856.6,504.7,-21.52,1.85
2858.9,505.09,-21.54,1.85
2861.2,505.56,-21.56,1.84
2863.5,506.08,-21.57,1.84
2865.8,506.37,-21.58,1.84
2868.1,506.75,-21.59,1.84
2870.4,507.05,-21.6,1.83
2872.7,507.39,-21.62,1.83
2875,507.9,-21.64,1.83
2877.3,508.25,-21.66,1.83
2879.6,508.75,-21.69,1.83
2881.9,508.93,-21.73,1.82
2884.2,509.48,-21.77,1.82
2886.5,509.66,-21.81,1.82
2888.8,510.14,-21.85,1.82
2891.1,510.5,-21.9,1.81
2893.4,511.13,-21.95,1.81
2895.7,511.29,-22,1.81
2898,511.76,-22.05,1.81
2900.3,511.98,-22.11,1.8
2902.6,512.48,-22.17,1.8
2904.9,512.62,-22.22,1.8
2907.2,513.33,-22.27,1.8
2909.5,513.63,-22.31,1.8
2911.8,514.1,-22.35,1.79
2914.1,514.33,-22.39,1.79
2916.4,514.81,-22.42,1.79
2918.7,515,-22.44,1.79
2921,515.76,-22.47,1.79
2923.3,515.96,-22.49,1.78
2925.6,516.42,-22.51,1.78
2927.9,516.62,-22.53,1.78
2930.2,517.12,-22.56,1.78
2932.5,517.39,-22.58,1.78
2934.8,517.75,-22.61,1.77
2937.1,518.45,-22.64,1.77
2939.4,518.73,-22.68,1.77
2941.7,519.06,-22.71,1.77
2944,519.35,-22.74,1.77
2946.3,519.76,-22.77,1.76
2948.6,520.11,-22.79,1.76
2950.9,520.46,-22.82,1.76
2953.2,521.01,-22.85,1.76
2955.5,521.37,-22.87,1.76
2957.8,521.73,-22.89,1.76
2960.1,522.04,-22.91,1.75
2962.4,522.4,-22.92,1.75
2964.7,522.77,-22.92,1.75
2967,523.17,-22.94,1.75
2969.3,523.74,-22.96,1.75
2971.6,523.96,-22.99,1.74
2973.9,524.45,-23.03,1.74
2976.2,524.63,-23.08,1.74
2978.5,525.25,-23.13,1.74
2980.8,525.31,-23.17,1.74
2983.1,526.02,-23.21,1.74
2985.4,526.31,-23.25,1.73
2987.7,526.84,-23.3,1.73
2990,526.97,-23.34,1.73
2992.3,527.48,-23.39,1.73
2994.6,527.77,-23.43,1.73
2996.9,528.24,-23.46,1.73
2999.2,528.63,-23.48,1.72
3001.5,529.17,-23.49,1.72
3003.8,529.42,-23.51,1.72
3006.1,529.87,-23.52,1.72
3008.4,530.12,-23.54,1.72
3010.7,530.55,-23.56,1.72
3013,530.94,-23.58,1.71
3015.3,531.47,-23.62,1.71
3017.6,531.77,-23.66,1.71
3019.9,532.15,-23.7,1.71
3022.2,532.46,-23.75,1.71
3024.5,532.83,-23.8,1.7
3026.8,533.08,-23.85,1.7
3029.1,533.66,-23.9,1.7
3031.4,534.06,-23.94,1.7
3033.7,534.47,-23.97,1.7
3036,534.71,-24,1.7
3038.3,535.1,-24.03,1.69
3040.6,535.45,-24.05,1.69
3042.9,535.75,-24.07,1.69
3045.2,536.33,-24.1,1.69
3047.5,536.65,-24.12,1.68
3049.8,537.11,-24.15,1.68
3052.1,537.28,-24.18,1.68
3054.4,537.84,-24.21,1.68
3056.7,537.97,-24.24,1.68
3059,538.64,-24.27,1.68
3061.3,538.93,-24.29,1.68
3063.6,539.49,-24.32,1.67
3065.9,539.63,-24.36,1.67
3068.2,540.1,-24.39,1.67
3070.5,540.4,-24.43,1.67
3072.8,540.81,-24.46,1.67
3075.1,541.24,-24.49,1.67
3077.4,541.82,-24.52,1.67
3079.7,542.09,-24.55,1.67
3082,542.48,-24.57,1.66
3084.3,542.73,-24.6,1.66
3086.6,543.18,-24.63,1.66
3088.9,543.43,-24.67,1.66
3091.2,543.99,-24.7,1.66
3093.5,544.36,-24.74,1.66
3095.8,544.8,-24.77,1.65
3098.1,545.11,-24.79,1.65
3100.4,545.44,-24.82,1.65
3102.7,545.73,-24.84,1.65
3105,546.26,-24.86,1.65
3107.3,546.7,-24.88,1.65
3109.6,547.14,-24.9,1.64
3111.9,547.43,-24.91,1.64
3114.2,547.8,-24.93,1.64
3116.5,548.13,-24.96,1.64
3118.8,548.37,-24.98,1.64
3121.1,549.01,-25.02,1.64
3123.4,549.27,-25.05,1.64
3125.7,549.83,-25.09,1.63
3128,550,-25.14,1.63
3130.3,550.52,-25.18,1.63
3132.6,550.65,-25.22,1.63
3134.9,551.22,-25.25,1.63
3137.2,551.57,-25.29,1.63
3139.5,552.1,-25.33,1.63
3141.8,552.35,-25.37,1.62
3144.1,552.83,-25.41,1.62
3146.4,553.03,-25.45,1.62
3148.7,553.44,-25.5,1.62
3151,553.77,-25.56,1.62
3153.3,554.3,-25.62,1.62
3155.6,554.54,-25.67,1.62
3157.9,554.96,-25.73,1.61
3160.2,555.22,-25.78,1.61
3162.5,555.67,-25.83,1.61
3164.8,555.88,-25.87,1.61
3167.1,556.43,-25.9,1.61
3169.4,556.82,-25.93,1.61
3171.7,557.2,-25.96,1.61
3174,557.49,-25.97,1.6
3176.3,557.89,-25.99,1.6
3178.6,558.19,-26.01,1.6
3180.9,558.59,-26.03,1.6
3183.2,559.03,-26.05,1.6
3185.5,559.44,-26.07,1.6
3187.8,559.74,-26.09,1.6
3190.1,560.04,-26.1,1.59
3192.4,560.51,-26.12,1.59
3194.7,560.66,-26.13,1.59
3197,561.35,-26.15,1.59
3199.3,561.6,-26.17,1.59
3201.6,562.17,-26.2,1.59
3203.9,562.31,-26.22,1.59
3206.2,562.87,-26.24,1.59
3208.5,563.08,-26.26,1.58
3210.8,563.56,-26.26,1.58
3213.1,564,-26.25,1.58
3215.4,564.52,-26.25,1.58
3217.7,564.77,-26.26,1.58
3220,565.22,-26.27,1.58
3222.3,565.47,-26.29,1.58
3224.6,565.9,-26.32,1.58
3226.9,566.2,-26.35,1.57
3229.2,566.74,-26.39,1.57
3231.5,567.05,-26.43,1.57
3233.8,567.43,-26.47,1.57
3236.1,567.77,-26.51,1.57
3238.4,568.15,-26.54,1.57
3240.7,568.43,-26.57,1.57
3243,568.97,-26.6,1.57
3245.3,569.38,-26.63,1.56
3247.6,569.77,-26.65,1.56
3249.9,570.03,-26.67,1.56
3252.2,570.41,-26.69,1.56
3254.5,570.81,-26.71,1.56
3256.8,570.99,-26.74,1.56
3259.1,571.74,-26.77,1.56
3261.4,571.99,-26.8,1.56
3263.7,572.5,-26.83,1.55
3266,572.63,-26.86,1.55
3268.3,573.21,-26.89,1.55
3270.6,573.4,-26.92,1.55
3272.9,573.96,-26.95,1.55
3275.2,574.56,-26.97,1.55
3277.5,574.87,-26.99,1.55
3279.8,575.08,-27.01,1.55
3282.1,575.57,-27.02,1.55
3284.4,575.82,-27.04,1.55
3286.7,576.26,-27.05,1.54
3289,576.67,-27.06,1.54
3291.3,577.24,-27.07,1.54
3293.6,577.52,-27.09,1.54
3295.9,577.89,-27.11,1.54
3298.2,578.17,-27.14,1.54
3300.5,578.6,-27.17,1.54
3302.8,578.86,-27.2,1.54
3305.1,579.45,-27.24,1.54
3307.4,579.74,-27.28,1.53
3309.7,580.21,-27.32,1.53
3312,580.51,-27.36,1.53
3314.3,580.83,-27.4,1.53
3316.6,581.18,-27.44,1.53
3318.9,581.47,-27.48,1.53
3321.2,582.04,-27.53,1.53
3323.5,582.28,-27.57,1.53
3325.8,582.83,-27.61,1.53
3328.1,583.01,-27.65,1.53
3330.4,583.57,-27.69,1.53
3332.7,583.69,-27.72,1.53
3335,584.32,-27.75,1.52
3337.3,584.67,-27.76,1.52
3339.6,585.16,-27.78,1.52
3341.9,585.37,-27.79,1.52
3344.2,585.84,-27.8,1.52
3346.5,586.13,-27.82,1.52
3348.8,586.53,-27.84,1.52
3351.1,586.94,-27.86,1.52
3353.4,587.44,-27.88,1.52
3355.7,587.75,-27.9,1.52
3358,588.13,-27.93,1.51
3360.3,588.41,-27.96,1.51
3362.6,588.76,-27.98,1.51
3364.9,589.15,-28.01,1.51
3367.2,589.62,-28.03,1.51
3369.5,590.03,-28.06,1.51
3371.8,590.38,-28.09,1.51
3374.1,590.7,-28.11,1.51
3376.4,591.02,-28.15,1.51
3378.7,591.35,-28.18,1.51
3381,591.7,-28.22,1.51
3383.3,592.35,-28.26,1.51
3385.6,592.52,-28.3,1.51
3387.9,593.01,-28.33,1.51
3390.2,593.24,-28.36,1.5
3392.5,593.75,-28.39,1.5
3394.8,593.87,-28.41,1.5
3397.1,594.53,-28.43,1.5
3399.4,594.9,-28.46,1.5
3401.7,595.32,-28.48,1.5
3404,595.54,-28.51,1.5
3406.3,596.03,-28.55,1.5
3408.6,596.21,-28.58,1.5
3410.9,596.7,-28.61,1.5
3413.2,597.05,-28.63,1.5
3415.5,597.53,-28.66,1.5
3417.8,597.81,-28.7,1.5
3420.1,598.19,-28.73,1.49
3422.4,598.7,-28.76,1.49
3424.7,598.84,-28.79,1.49
3427,599.32,-28.81,1.49
3429.3,599.72,-28.82,1.49
3431.6,600.1,-28.83,1.49
3433.9,600.38,-28.84,1.49
3436.2,600.77,-28.84,1.49
3438.5,600.95,-28.85,1.49
3440.8,601.52,-28.86,1.49
3443.1,601.86,-28.87,1.49
3443.8,601.93,-28.88,1.49